f (Mhz)	Details	CH
160.120	53.3733	0
160.130	53.3767	1
160.140	53.3800	2
160.150	53.3833	3
160.160	53.3867	4
160.170	53.3900	5
160.180	53.3933	6
160.190	53.3967	7
160.200	53.4000	8
160.210	53.4033	9
160.220	53.4067	10
160.230	53.4100	11
160.240	53.4133	12
160.250	53.4167	13
160.260	53.4200	14
160.270	53.4233	15
160.280	53.4267	16
160.290	53.4300	17
160.300	53.4333	18
160.310	53.4367	19
160.320	53.4400	20
160.330	53.4433	21
160.340	53.4467	22
160.350	53.4500	23
160.360	53.4533	24
160.370	53.4567	25
160.380	53.4600	26
160.390	53.4633	27
160.400	53.4667	28
160.410	53.4700	29
160.420	53.4733	30
160.430	53.4767	31
160.440	53.4800	32
160.450	53.4833	33
160.460	53.4867	34
160.470	53.4900	35
160.480	53.4933	36
160.490	53.4967	37
160.500	53.5000	38
160.510	53.5033	39
160.520	53.5067	40
160.530	53.5100	41
160.540	53.5133	42
160.550	53.5167	43
160.560	53.5200	44
160.570	53.5233	45
160.580	53.5267	46
160.590	53.5300	47
160.600	53.5333	48
160.610	53.5367	49
160.620	53.5400	50
160.630	53.5433	51
160.640	53.5467	52
160.650	53.5500	53
160.660	53.5533	54
160.670	53.5567	55
160.680	53.5600	56
160.690	53.5633	57
160.700	53.5667	58
160.710	53.5700	59
160.720	53.5733	60
160.730	53.5767	61
160.740	53.5800	62
160.750	53.5833	63
160.760	53.5867	64
160.770	53.5900	65
160.780	53.5933	66
160.790	53.5967	67
160.800	53.6000	68
160.810	53.6033	69
160.820	53.6067	70
160.830	53.6100	71
160.840	53.6133	72
160.850	53.6167	73
160.860	53.6200	74
160.870	53.6233	75
160.880	53.6267	76
160.890	53.6300	77
160.900	53.6333	78
160.910	53.6367	79
160.920	53.6400	80
160.930	53.6433	81
160.940	53.6467	82
160.950	53.6500	83
160.960	53.6533	84
160.970	53.6567	85
160.980	53.6600	86
160.990	53.6633	87
161.000	53.6667	88
161.010	53.6700	89
161.020	53.6733	90
161.030	53.6767	91
161.040	53.6800	92
161.050	53.6833	93
161.060	53.6867	94
161.070	53.6900	95
161.080	53.6933	96
161.090	53.6967	97
161.100	53.7000	98
161.110	53.7033	99

